trials_6.thisRepN,trials_6.thisTrialN,trials_6.thisN,trials_6.thisIndex,trials.thisRepN,trials.thisTrialN,trials.thisN,trials.thisIndex,text_6.started,text_6.stopped,button_2.started,button_2.stopped,button_2.numClicks,button_2.timesOn,button_2.timesOff,key_resp_11.keys,key_resp_11.rt,key_resp_11.started,key_resp_11.stopped,text_8.started,text_8.stopped,text_4.started,text_4.stopped,button.started,button.stopped,button.numClicks,button.timesOn,button.timesOff,key_resp_12.keys,key_resp_12.rt,key_resp_12.started,key_resp_12.stopped,text_7.started,text_7.stopped,key_resp_8.keys,key_resp_8.rt,key_resp_8.started,key_resp_8.stopped,sound_31.started,sound_31.stopped,text_10.started,text_10.stopped,polygon_26.started,polygon_26.stopped,sound_26.started,sound_26.stopped,polygon_27.started,polygon_27.stopped,sound_27.started,sound_27.stopped,polygon_28.started,polygon_28.stopped,sound_28.started,sound_28.stopped,polygon_29.started,polygon_29.stopped,sound_29.started,sound_29.stopped,key_resp_10.keys,key_resp_10.corr,key_resp_10.rt,key_resp_10.started,key_resp_10.stopped,polygon_30.started,polygon_30.stopped,sound_30.started,sound_30.stopped,text.started,text.stopped,key_resp_2.keys,key_resp_2.corr,key_resp_2.rt,key_resp_2.started,key_resp_2.stopped,polygon_31.started,polygon_31.stopped,polygon.started,polygon.stopped,sound_1.started,sound_1.stopped,polygon_3.started,polygon_3.stopped,sound_2.started,sound_2.stopped,polygon_4.started,polygon_4.stopped,sound_3.started,sound_3.stopped,polygon_2.started,polygon_2.stopped,key_resp.keys,key_resp.corr,key_resp.rt,key_resp.started,key_resp.stopped,sound_4.started,sound_4.stopped,polygon_5.started,polygon_5.stopped,sound_5.started,sound_5.stopped,participant,session,date,expName,psychopyVersion,frameRate,
,,,,,,,,15.128221138998924,None,15.128221138998924,None,0,,,space,1.7462164490007126,16.080791367998245,None,,,,,,,,,,,,,,,,,,,,,,,,,,,,,,,,,,,,,,,,,,,,,,,,,,,,,,,,,,,,,,,,,,,,,,,,,,,,,,,,,,,4343,001,2022-05-10_18h42.45.002,Trial_Exp,2022.1.2,59.99294039113001,
,,,,,,,,,,,,,,,,,,,17.84753094199914,None,32.85172006499852,None,32.85172006499852,None,0,,,space,1.1522465819998615,33.82075176199942,None,,,,,,,,,,,,,,,,,,,,,,,,,,,,,,,,,,,,,,,,,,,,,,,,,,,,,,,,,,,,,,,,,,,,,,4343,001,2022-05-10_18h42.45.002,Trial_Exp,2022.1.2,59.99294039113001,
,,,,,,,,,,,,,,,,,,,,,,,,,,,,,,,,35.00401655499991,None,space,2.7969932309988508,35.00401655499991,None,,,,,,,,,,,,,,,,,,,,,,,,,,,,,,,,,,,,,,,,,,,,,,,,,,,,,,,,,,,,,,,,4343,001,2022-05-10_18h42.45.002,Trial_Exp,2022.1.2,59.99294039113001,
0,0,0,0,,,,,,,,,,,,,,,,,,,,,,,,,,,,,,,,,,,35.003903777399316,36.00447001499924,35.00401655499991,None,37.82510810199892,None,37.82120124739849,None,42.821795967998696,None,42.822010572398355,None,46.822268404999704,None,46.8223838173988,None,50.823787501998595,None,50.82374822639831,None,rshift,0,40.02021039799911,50.823787501998595,None,90.86850121499992,None,90.86841979139972,91.8679603189994,,,,,,,,,,,,,,,,,,,,,,,,,,,,,,,,,,,4343,001,2022-05-10_18h42.45.002,Trial_Exp,2022.1.2,59.99294039113001,
1,0,1,0,,,,,,,,,,,,,,,,,,,,,,,,,,,,,,,,,,,,,,,97.87181566199979,None,97.87135631239907,None,102.87176554199868,None,102.87165525339951,None,106.87300425299873,None,106.87362711940004,None,110.87433237499863,None,110.87421220539981,None,rshift,1,5.429661939999278,110.87433237499863,None,116.32586919200003,None,116.32595168239895,117.31339753099928,,,,,,,,,,,,,,,,,,,,,,,,,,,,,,,,,,,4343,001,2022-05-10_18h42.45.002,Trial_Exp,2022.1.2,59.99294039113001,
2,0,2,0,,,,,,,,,,,,,,,,,,,,,,,,,,,,,,,,,,,,,,,123.32831339499899,None,123.32827017039999,None,128.32970614499936,None,128.3298280383995,None,132.320022504,None,132.32959319639923,None,136.3319874109984,None,136.3316697603994,None,rshift,0,8.241078113000185,136.3319874109984,None,144.60086311699888,None,144.60194642139942,145.60093421199963,,,,,,,,,,,,,,,,,,,,,,,,,,,,,,,,,,,4343,001,2022-05-10_18h42.45.002,Trial_Exp,2022.1.2,59.99294039113001,
3,0,3,0,,,,,,,,,,,,,,,,,,,,,,,,,,,,,,,,,,,,,,,151.60261266299858,None,151.6031621184,None,156.60454158899847,None,156.60522448239936,None,160.6050646979984,None,160.60530943140003,None,164.6064987459995,None,164.60650564839926,None,rshift,1,14.064500284999667,164.6064987459995,None,178.69443422599943,None,178.69405953039933,179.69429930499973,,,,,,,,,,,,,,,,,,,,,,,,,,,,,,,,,,,4343,001,2022-05-10_18h42.45.002,Trial_Exp,2022.1.2,59.99294039113001,
,,,,,,,,,,,,,,,,,,,,,,,,,,,,,,,,,,,,,,,,,,,,,,,,,,,,,,,,,,,,,,,,,,,185.70234015299866,None,space,0,11.142660268000327,185.70234015299866,None,,,,,,,,,,,,,,,,,,,,,,,,,,,,4343,001,2022-05-10_18h42.45.002,Trial_Exp,2022.1.2,59.99294039113001,
,,,,0,0,0,0,,,,,,,,,,,,,,,,,,,,,,,,,,,,,,,,,,,,,,,,,,,,,,,,,,,,,,,,,,,,,,,,,,,196.86553050099974,None,203.3623290129999,None,203.36823066539802,None,210.36092861299767,None,210.37154608539714,None,214.3669469790002,None,214.37660866939842,None,217.38845522299744,None,rshift,1,4.370540593001351,217.38845522299744,None,217.38843656140017,None,222.78049377299976,None,222.7896377553996,None,4343,001,2022-05-10_18h42.45.002,Trial_Exp,2022.1.2,59.99294039113001,
,,,,1,0,1,0,,,,,,,,,,,,,,,,,,,,,,,,,,,,,,,,,,,,,,,,,,,,,,,,,,,,,,,,,,,,,,,,,,,,,231.3167376700003,None,231.32595712119874,None,236.31605426999886,None,236.32722874139728,None,240.31875055199998,None,240.32850845639842,None,243.32935828599875,None,rshift,0,4.7446449029994255,243.32935828599875,None,243.32940775539902,None,249.09065481699872,None,249.0974000373979,None,4343,001,2022-05-10_18h42.45.002,Trial_Exp,2022.1.2,59.99294039113001,
,,,,2,0,2,0,,,,,,,,,,,,,,,,,,,,,,,,,,,,,,,,,,,,,,,,,,,,,,,,,,,,,,,,,,,,,,,,,,,,,258.61868795400005,None,258.61686718079875,None,263.61201311900004,None,263.62230451139914,None,267.6297507649979,None,267.6359627514001,None,270.63835684699734,None,rshift,0,29.5286409979999,270.63835684699734,None,270.6373244693976,None,301.187805698999,None,301.1961078313987,None,4343,001,2022-05-10_18h42.45.002,Trial_Exp,2022.1.2,59.99294039113001,
,,,,3,0,3,0,,,,,,,,,,,,,,,,,,,,,,,,,,,,,,,,,,,,,,,,,,,,,,,,,,,,,,,,,,,,,,,,,,,,,308.7098252350006,None,308.71492488579827,None,313.7056443420006,None,313.71495973739803,None,317.70632383299744,None,317.7170289083995,None,320.7263624369989,None,rshift,1,12.797570869999618,320.7263624369989,None,320.71772329840024,None,334.5464019840001,None,334.5555130953988,None,4343,001,2022-05-10_18h42.45.002,Trial_Exp,2022.1.2,59.99294039113001,
,,,,4,0,4,0,,,,,,,,,,,,,,,,,,,,,,,,,,,,,,,,,,,,,,,,,,,,,,,,,,,,,,,,,,,,,,,,,,,,,343.07334325600095,None,343.0741927137984,None,348.0655220389999,None,348.0755726184005,None,352.06580937499893,None,352.0768429803982,None,355.0777583220006,None,rshift,1,6.145237774999259,355.0777583220006,None,355.0791713414008,None,362.23856776699904,None,362.2463842193982,None,4343,001,2022-05-10_18h42.45.002,Trial_Exp,2022.1.2,59.99294039113001,
,,,,5,0,5,0,,,,,,,,,,,,,,,,,,,,,,,,,,,,,,,,,,,,,,,,,,,,,,,,,,,,,,,,,,,,,,,,,,,,,371.766990625998,None,371.7660255768002,None,377.7562476919993,None,377.7674396053997,None,381.75920062599835,None,381.7687026604006,None,384.77105954999934,None,rshift,0,8.593585085000086,384.77105954999934,None,384.7707206983985,None,394.38249391700083,None,394.38935262540036,None,4343,001,2022-05-10_18h42.45.002,Trial_Exp,2022.1.2,59.99294039113001,
,,,,6,0,6,0,,,,,,,,,,,,,,,,,,,,,,,,,,,,,,,,,,,,,,,,,,,,,,,,,,,,,,,,,,,,,,,,,,,,,404.90822003599897,None,404.909316245799,None,408.8996247869982,None,408.90959258840013,None,412.90503637899747,None,412.91257331439994,None,415.91147281699887,None,rshift,0,15.892519949000416,415.91147281699887,None,415.91156872239736,None,432.82531497499804,None,432.8331852023992,None,4343,001,2022-05-10_18h42.45.002,Trial_Exp,2022.1.2,59.99294039113001,
,,,,7,0,7,0,,,,,,,,,,,,,,,,,,,,,,,,,,,,,,,,,,,,,,,,,,,,,,,,,,,,,,,,,,,,,,,,,,,,,442.39115548100017,None,442.3860913165983,None,449.39572966099877,None,449.4053119604003,None,453.39664760699816,None,453.40584718639803,None,456.40621673299756,None,rshift,1,15.13077956699999,456.40621673299756,None,456.40629653239813,None,472.5572689969995,None,472.5612354673984,None,4343,001,2022-05-10_18h42.45.002,Trial_Exp,2022.1.2,59.99294039113001,
,,,,8,0,8,0,,,,,,,,,,,,,,,,,,,,,,,,,,,,,,,,,,,,,,,,,,,,,,,,,,,,,,,,,,,,,,,,,,,,,481.07919437999954,None,481.0808217827995,None,486.07200720000037,None,486.0820033153985,None,490.072729872998,None,490.08326279340037,None,493.07266608400096,None,rshift,0,6.406319809000706,493.07266608400096,None,493.0824346853995,None,500.49380705599833,None,500.5028530114003,None,4343,001,2022-05-10_18h42.45.002,Trial_Exp,2022.1.2,59.99294039113001,
,,,,9,0,9,0,,,,,,,,,,,,,,,,,,,,,,,,,,,,,,,,,,,,,,,,,,,,,,,,,,,,,,,,,,,,,,,,,,,,,508.0199252559978,None,508.0218466807979,None,512.0118492670008,None,512.0224865333992,None,516.0149590260007,None,516.0250881603977,None,519.0250016179998,None,rshift,1,13.020046394998644,519.0250016179998,None,519.0249178963975,None,533.058109521,None,533.0655249944,None,4343,001,2022-05-10_18h42.45.002,Trial_Exp,2022.1.2,59.99294039113001,
,,,,10,0,10,0,,,,,,,,,,,,,,,,,,,,,,,,,,,,,,,,,,,,,,,,,,,,,,,,,,,,,,,,,,,,,,,,,,,,,542.5759416429973,None,542.5815360587999,None,547.5732417079998,None,547.5827353024004,None,551.5736427519987,None,551.5839618523976,None,554.5851430119983,None,rshift,1,10.373886645000312,554.5851430119983,None,554.5848011433998,None,565.9814377799994,None,565.9890555913996,None,4343,001,2022-05-10_18h42.45.002,Trial_Exp,2022.1.2,59.99294039113001,
